"rt","chain","gloss","trialnum","response","clozeIndex","document","original","condition","age","comments","education","ethnicity","gender","language","languageFree","studyQuestionGuess","workerid"
17492,"84","Server start.",1,"The waiter came to the table. ",1,"063","The server started arguing with my wife, ""I made sure the cook knew it had to be rare... the cook was going to leave it on longer but I made him take it off... etc.'' After a minute or so of listening to them argue about whether the burger was well done or rare, I just picked the burger patty up with both hands, they both stopped and looked at me, and I broke the burger patty in half with an audible snap.","caveman","26","No thank you. ","4","white","male","eng",NA,"To see if people could fill in the blanks, and literally read between the lines.",1
20853,"21","Waitress come.",2,"How often do people find bugs in their food?",0,"243","After perusing our menus, the waitress came over to take our order.","caveman","26","No thank you. ","4","white","male","eng",NA,"To see if people could fill in the blanks, and literally read between the lines.",1
17864,"11","We be.",3,"The boy threw his fork across the dining room. ",3,"191","We were out of things for him to do other than sing ""Old MacDonald'' to him, which probably wouldn't have gone over too well with the other patrons.","caveman","26","No thank you. ","4","white","male","eng",NA,"To see if people could fill in the blanks, and literally read between the lines.",1
18090,"168","Husband decide.",4,"I forgot my wallet at home, and could not pay for my food. ",0,"177","My husband and I decided to just order a couple of sodas and desserts as we had a big breakfast earlier in the day and we explained to the waitress that our two orders would be on a separate ticket which seemed to confuse her.","caveman","26","No thank you. ","4","white","male","eng",NA,"To see if people could fill in the blanks, and literally read between the lines.",1
21060,"68","He put on table.",5,"The couple refused to pay for their meals, and made quite the scene. ",3,"196","He put the box and the scale down on their table, and proceeded to pull raw steaks out of the box.","caveman","26","No thank you. ","4","white","male","eng",NA,"To see if people could fill in the blanks, and literally read between the lines.",1
9450,"40","I have.",6,"I found a bug in my food, and wanted a free meal. ",1,"086","I always had to speak up and try to get her attention for a refill.","caveman","26","No thank you. ","4","white","male","eng",NA,"To see if people could fill in the blanks, and literally read between the lines.",1
9056,"78","We not allow.",7,"The food at this place is delicious. ",0,"022","As I said, we did not allow it to tarnish our evening.","caveman","26","No thank you. ","4","white","male","eng",NA,"To see if people could fill in the blanks, and literally read between the lines.",1
6570,"47","He mention.",8,"I needed a refill. ",1,"025","At that point he also mentioned that the boss likes to sit at the booth I asked to sit in and that's why I couldn't sit there.","caveman","26","No thank you. ","4","white","male","eng",NA,"To see if people could fill in the blanks, and literally read between the lines.",1
10744,"62","I stick.",9,"The salad bar was completely empty. ",0,"151","At this point I'm just sticking around to watch the show.","caveman","26","No thank you. ","4","white","male","eng",NA,"To see if people could fill in the blanks, and literally read between the lines.",1
10833,"22","It thing.",10,"The waiter came to the table at last. ",1,"153","It was a good thing that they didn't prepare my meal before giving me the price!","caveman","26","No thank you. ","4","white","male","eng",NA,"To see if people could fill in the blanks, and literally read between the lines.",1
8279,"86","I order.",11,"We waited forever to be seated. ",0,"248","After we ordered the waitress came back and apologized saying they were out of the pecan pie I had ordered.","caveman","26","No thank you. ","4","white","male","eng",NA,"To see if people could fill in the blanks, and literally read between the lines.",1
14749,"110","I wonder.",12,"My wife refused to cook me anymore meals, stating that she was too busy. ",3,"050","I wonder, however, what we could have done differently to avoid his attitude.","caveman","26","No thank you. ","4","white","male","eng",NA,"To see if people could fill in the blanks, and literally read between the lines.",1
18933,"41","We seat.",13,"My steak was slightly undercooked, which I told her when she came back to check in on us. ",2,"120","We'd been seated at a booth, but I sat on a regular chair on the outside of the table -- yes, my crazy bubble rules apply to even family members --.","caveman","26","No thank you. ","4","white","male","eng",NA,"To see if people could fill in the blanks, and literally read between the lines.",1
11576,"18","I tip.",14,"The food was overcooked and not good. ",2,"271","I usually tip well, but I gave the waiter 12%, which actually was too much.","caveman","26","No thank you. ","4","white","male","eng",NA,"To see if people could fill in the blanks, and literally read between the lines.",1
8291,"76","She decide.",15,"The dishes crashed to the floor. ",1,"033","At this point, she finally decides to get off the phone and gets huffy with the waitress about the ""defective teabag'' and how she needs to place her order ""right now because she's in a hurry.''","caveman","26","No thank you. ","4","white","male","eng",NA,"To see if people could fill in the blanks, and literally read between the lines.",1
12780,"88","He tell.",16,"The desert at the other table looked appetizing. ",5,"023","He told them they were no longer welcome.","caveman","26","No thank you. ","4","white","male","eng",NA,"To see if people could fill in the blanks, and literally read between the lines.",1
11484,"29","It pour with rain.",17,"It happened on a weekend. ",1,"171","It was also pouring with rain outside and the restaurant was very busy with only about two tables free.","caveman","26","No thank you. ","4","white","male","eng",NA,"To see if people could fill in the blanks, and literally read between the lines.",1
48217,"84","Seconds come.",1,"All I can see is blurred words and 'server start' written over them?",0,"063","A few seconds later the server came to check on us and asked how our food was.","event_only","30","sorry i accidentally hit / instead of period a couple of times","2","white","male","eng",NA,"it was fine",2
16655,"110","I refuse.",2,"My wife finally retired now she washes lots of dishes.",2,"050","I refused but also declined to tip the culprit.","event_only","30","sorry i accidentally hit / instead of period a couple of times","2","white","male","eng",NA,"it was fine",2
21916,"58","It freezing.",3,"When the waiter brought our food he pointed something out to me.",0,"171","It's freezing this time of year so I didn't want to sit near the door.","event_only","30","sorry i accidentally hit / instead of period a couple of times","2","white","male","eng",NA,"it was fine",2
12784,"11","We be.",4,"We gave our son a gift for behaving.",3,"191","We were out of things for him to do other than sing ""Old MacDonald'' to him, which probably wouldn't have gone over too well with the other patrons.","event_only","30","sorry i accidentally hit / instead of period a couple of times","2","white","male","eng",NA,"it was fine",2
6429,"48","Judge try.",5,"I am now the manager at work/",1,"022","In reality this ""judge'' was trying to hide his martini on the floor.","event_only","30","sorry i accidentally hit / instead of period a couple of times","2","white","male","eng",NA,"it was fine",2
8247,"18","Waiter say.",6,"We went to the restaurant.",0,"271","The waiter said nothing the rest of the evening about us having to leave early, but he was clearly peeved.","event_only","30","sorry i accidentally hit / instead of period a couple of times","2","white","male","eng",NA,"it was fine",2
11678,"68","He throw.",7,"I did not give in/",5,"196","He then would throw that steak on the table, get another one out of the box, throw it on the scale, and again, exclaim:  ""10 ounces!''","event_only","30","sorry i accidentally hit / instead of period a couple of times","2","white","male","eng",NA,"it was fine",2
7892,"62","I stick.",8,"I needed to sneeze.",0,"151","At this point I'm just sticking around to watch the show.","event_only","30","sorry i accidentally hit / instead of period a couple of times","2","white","male","eng",NA,"it was fine",2
11564,"10","It freezing.",9,"So it will be.",1,"025","It's freezing this time of year so I didn't want to sit near the door.","event_only","30","sorry i accidentally hit / instead of period a couple of times","2","white","male","eng",NA,"it was fine",2
15393,"20","Couple run.",10,"My friend came over.",1,"177","A couple of months ago my husband and I were out running errands and decide to meet up with some friends at a local ""Mom & Pop'' restaurant.","event_only","30","sorry i accidentally hit / instead of period a couple of times","2","white","male","eng",NA,"it was fine",2
10118,"41","We seat.",11,"We finish eating.",2,"120","We'd been seated at a booth, but I sat on a regular chair on the outside of the table -- yes, my crazy bubble rules apply to even family members --.","event_only","30","sorry i accidentally hit / instead of period a couple of times","2","white","male","eng",NA,"it was fine",2
5623,"76","She break.",12,"I asked what she wanted.",0,"033","Of course, she breaks the teabag inside.","event_only","30","sorry i accidentally hit / instead of period a couple of times","2","white","male","eng",NA,"it was fine",2
12362,"41","We people.",13,"We ask for a table. ",1,"243","We're amicable people, and enjoy small-talk with waiters... well, my mum and sister do, I'm hard of hearing so I'm generally quiet.","event_only","30","sorry i accidentally hit / instead of period a couple of times","2","white","male","eng",NA,"it was fine",2
6320,"40","Waitress offer.",14,"I wanted to get ice cream.",0,"086","The waitress offered to refill my mother and brother's glasses, but she never asked if I needed one.","event_only","30","sorry i accidentally hit / instead of period a couple of times","2","white","male","eng",NA,"it was fine",2
7827,"86","I order.",15,"We sit down.",0,"248","After we ordered the waitress came back and apologized saying they were out of the pecan pie I had ordered.","event_only","30","sorry i accidentally hit / instead of period a couple of times","2","white","male","eng",NA,"it was fine",2
12122,"88","I interrupt.",16,"I decide what to do.",1,"023","I interrupted her stating, ""I will go get my manager,'' and walked away.","event_only","30","sorry i accidentally hit / instead of period a couple of times","2","white","male","eng",NA,"it was fine",2
4896,"22","It thing.",17,"I eat and it is good.",1,"153","It was a good thing that they didn't prepare my meal before giving me the price!","event_only","30","sorry i accidentally hit / instead of period a couple of times","2","white","male","eng",NA,"it was fine",2
42714,"10","It be.",1,"The air conditioning was too strong.",0,"025","It was off to a bad start as soon as I walked in the door.","caveman","44","no","7","white, non-hispanic","male","eng",NA,"I think you're trying to see if the amount of information affects what people come up with.",3
30413,"68","He throw.",2,"The people left without paying.",5,"196","He then would throw that steak on the table, get another one out of the box, throw it on the scale, and again, exclaim:  ""10 ounces!''","caveman","44","no","7","white, non-hispanic","male","eng",NA,"I think you're trying to see if the amount of information affects what people come up with.",3
23907,"11","Son behave.",3,"It wasn't the restaurant's fault, though.",4,"191","Our son was now behaving the way you would expect an 18-month-old to behave after sitting in a high chair for nearly an hour watching other people eat.","caveman","44","no","7","white, non-hispanic","male","eng",NA,"I think you're trying to see if the amount of information affects what people come up with.",3
21172,"40","I have.",4,"We decided to order the special.",1,"086","I always had to speak up and try to get her attention for a refill.","caveman","44","no","7","white, non-hispanic","male","eng",NA,"I think you're trying to see if the amount of information affects what people come up with.",3
27589,"18","I tip.",5,"The staff were very rude.",2,"271","I usually tip well, but I gave the waiter 12%, which actually was too much.","caveman","44","no","7","white, non-hispanic","male","eng",NA,"I think you're trying to see if the amount of information affects what people come up with.",3
25034,"29","It pour with rain.",6,"We still had a good time, though.",1,"171","It was also pouring with rain outside and the restaurant was very busy with only about two tables free.","caveman","44","no","7","white, non-hispanic","male","eng",NA,"I think you're trying to see if the amount of information affects what people come up with.",3
38674,"168","Husband decide.",7,"The waiter spilled my drink on me.",0,"177","My husband and I decided to just order a couple of sodas and desserts as we had a big breakfast earlier in the day and we explained to the waitress that our two orders would be on a separate ticket which seemed to confuse her.","caveman","44","no","7","white, non-hispanic","male","eng",NA,"I think you're trying to see if the amount of information affects what people come up with.",3
19991,"22","I order.",8,"Our meal was great.",0,"153","I ordered a fairly simple meal, and it was only when I opened my wallet that I suddenly realised I had forgotten to go to the bank.","caveman","44","no","7","white, non-hispanic","male","eng",NA,"I think you're trying to see if the amount of information affects what people come up with.",3
34175,"21","Waitress come.",9,"We didn't know what some of the dishes were.",0,"243","After perusing our menus, the waitress came over to take our order.","caveman","44","no","7","white, non-hispanic","male","eng",NA,"I think you're trying to see if the amount of information affects what people come up with.",3
15634,"86","I order.",10,"It took a long time for us to be seated.",0,"248","After we ordered the waitress came back and apologized saying they were out of the pecan pie I had ordered.","caveman","44","no","7","white, non-hispanic","male","eng",NA,"I think you're trying to see if the amount of information affects what people come up with.",3
25188,"78","You think.",11,"It was very frustrating.",1,"022","If anyone should know better, you'd think it was him, except for his sense of entitlement.","caveman","44","no","7","white, non-hispanic","male","eng",NA,"I think you're trying to see if the amount of information affects what people come up with.",3
17281,"41","Food good.",12,"We arrived early.",0,"120","The food was good, the service was good, we had a fun time.","caveman","44","no","7","white, non-hispanic","male","eng",NA,"I think you're trying to see if the amount of information affects what people come up with.",3
12639,"84","Server start.",13,"The service was very fast.",1,"063","The server started arguing with my wife, ""I made sure the cook knew it had to be rare... the cook was going to leave it on longer but I made him take it off... etc.'' After a minute or so of listening to them argue about whether the burger was well done or rare, I just picked the burger patty up with both hands, they both stopped and looked at me, and I broke the burger patty in half with an audible snap.","caveman","44","no","7","white, non-hispanic","male","eng",NA,"I think you're trying to see if the amount of information affects what people come up with.",3
18257,"62","I stick.",14,"Something didn't look right on the plate.",0,"151","At this point I'm just sticking around to watch the show.","caveman","44","no","7","white, non-hispanic","male","eng",NA,"I think you're trying to see if the amount of information affects what people come up with.",3
18720,"110","I refuse.",15,"It seemed like the food had been reheated.",2,"050","I refused but also declined to tip the culprit.","caveman","44","no","7","white, non-hispanic","male","eng",NA,"I think you're trying to see if the amount of information affects what people come up with.",3
24026,"76","She break.",16,"There were a lot of options to choose from.",0,"033","Of course, she breaks the teabag inside.","caveman","44","no","7","white, non-hispanic","male","eng",NA,"I think you're trying to see if the amount of information affects what people come up with.",3
15221,"88","I interrupt.",17,"He explained it to me, though.",1,"023","I interrupted her stating, ""I will go get my manager,'' and walked away.","caveman","44","no","7","white, non-hispanic","male","eng",NA,"I think you're trying to see if the amount of information affects what people come up with.",3
100898,"68","He put the box and the scale down on their table, and proceeded to pull raw steaks out of the box.",1,"When the man didn't believe him, the manager stormed into the kitchen and produced a book from the fridge.",3,"196","He put the box and the scale down on their table, and proceeded to pull raw steaks out of the box.","original","31","instructions weren't very clear","6","white","female","eng",NA,"reading comprehension",4
82895,"168","I was so embarrassed by the spectacle she made us into that I just wanted to leave.",2,"She accused us of being cheap so loudly everyone in the restaurant stared at her, and then us.",2,"177","I was so embarrassed by the spectacle she made us into that I just wanted to leave.","original","31","instructions weren't very clear","6","white","female","eng",NA,"reading comprehension",4
313353,"88","He told them they were no longer welcome.",3,"The customer asked why I couldn't take more money off the bill.",5,"023","He told them they were no longer welcome.","original","31","instructions weren't very clear","6","white","female","eng",NA,"reading comprehension",4
37961,"29","It happened on a bank holiday and I was not at work that day.",4,"It was a Friday, so the restaurant was full.",0,"171","It happened on a bank holiday and I was not at work that day.","original","31","instructions weren't very clear","6","white","female","eng",NA,"reading comprehension",4
36857,"41","We'd been seated at a booth, but I sat on a regular chair on the outside of the table -- yes, my crazy bubble rules apply to even family members --.",5,"We don't like to cause a fuss.",2,"120","We'd been seated at a booth, but I sat on a regular chair on the outside of the table -- yes, my crazy bubble rules apply to even family members --.","original","31","instructions weren't very clear","6","white","female","eng",NA,"reading comprehension",4
18007,"10","It's freezing this time of year so I didn't want to sit near the door.",6,"The restaurant was busy and we had to wait to be seated.",1,"025","It's freezing this time of year so I didn't want to sit near the door.","original","31","instructions weren't very clear","6","white","female","eng",NA,"reading comprehension",4
11230,"40","I always had to speak up and try to get her attention for a refill.",7,"I thought she was very rude.",1,"086","I always had to speak up and try to get her attention for a refill.","original","31","instructions weren't very clear","6","white","female","eng",NA,"reading comprehension",4
7144,"22","It was a good thing that they didn't prepare my meal before giving me the price!",8,"I was so embarrassed.",1,"153","It was a good thing that they didn't prepare my meal before giving me the price!","original","31","instructions weren't very clear","6","white","female","eng",NA,"reading comprehension",4
23149,"76","At this point, she finally decides to get off the phone and gets huffy with the waitress about the ""defective teabag'' and how she needs to place her order ""right now because she's in a hurry.''",9,"Loose tea leaves poured out everywhere.",1,"033","At this point, she finally decides to get off the phone and gets huffy with the waitress about the ""defective teabag'' and how she needs to place her order ""right now because she's in a hurry.''","original","31","instructions weren't very clear","6","white","female","eng",NA,"reading comprehension",4
15615,"84","A few seconds later the server came to check on us and asked how our food was.",10,"My wife complained that her steak was overdone.",0,"063","A few seconds later the server came to check on us and asked how our food was.","original","31","instructions weren't very clear","6","white","female","eng",NA,"reading comprehension",4
20390,"110","I wonder, however, what we could have done differently to avoid his attitude.",11,"He wasn't getting a penny more from me.",3,"050","I wonder, however, what we could have done differently to avoid his attitude.","original","31","instructions weren't very clear","6","white","female","eng",NA,"reading comprehension",4
20408,"18","I usually tip well, but I gave the waiter 12%, which actually was too much.",12,"He wanted us to leave but we weren't going anywhere.",2,"271","I usually tip well, but I gave the waiter 12%, which actually was too much.","original","31","instructions weren't very clear","6","white","female","eng",NA,"reading comprehension",4
17567,"48","In reality this ""judge'' was trying to hide his martini on the floor.",13,"I strongly suspected the customer was a drunk.",1,"022","In reality this ""judge'' was trying to hide his martini on the floor.","original","31","instructions weren't very clear","6","white","female","eng",NA,"reading comprehension",4
10630,"86","When it came time to pay she brings our ticket and explains that she rang us up for the pecan pie I had ordered as it was less expensive and what I wanted in the first place, but we noticed that she charged us for our friend's Taco Salad.",14,"She offered us apple pie instead.",1,"248","When it came time to pay she brings our ticket and explains that she rang us up for the pecan pie I had ordered as it was less expensive and what I wanted in the first place, but we noticed that she charged us for our friend's Taco Salad.","original","31","instructions weren't very clear","6","white","female","eng",NA,"reading comprehension",4
30581,"11","We were out of things for him to do other than sing ""Old MacDonald'' to him, which probably wouldn't have gone over too well with the other patrons.",15,"We didn't want him to disturb other diners.",3,"191","We were out of things for him to do other than sing ""Old MacDonald'' to him, which probably wouldn't have gone over too well with the other patrons.","original","31","instructions weren't very clear","6","white","female","eng",NA,"reading comprehension",4
24287,"41","The food was good, the service was good, we had a fun time.",16,"We went to our regular restaurant on Friday night.",0,"243","The food was good, the service was good, we had a fun time.","original","31","instructions weren't very clear","6","white","female","eng",NA,"reading comprehension",4
14318,"62","At this point I'm just sticking around to watch the show.",17,"I ordered a salad, and noticed there was something wrong.",0,"151","At this point I'm just sticking around to watch the show.","original","31","instructions weren't very clear","6","white","female","eng",NA,"reading comprehension",4
13930,"78","You think.",1,"we order appetizers ",1,"022","If anyone should know better, you'd think it was him, except for his sense of entitlement.","event_only","36","Thanks ","4","caucasian","male","eng",NA,"No clue",5
13144,"68","He throw.",2,"The point was that we wanted it made our way ",5,"196","He then would throw that steak on the table, get another one out of the box, throw it on the scale, and again, exclaim:  ""10 ounces!''","event_only","36","Thanks ","4","caucasian","male","eng",NA,"No clue",5
8264,"84","Seconds come.",3,"Despite that we went ahead with our order ",0,"063","A few seconds later the server came to check on us and asked how our food was.","event_only","36","Thanks ","4","caucasian","male","eng",NA,"No clue",5
14610,"10","It be.",4,"Putting our best judgement aside we decided to stay ",0,"025","It was off to a bad start as soon as I walked in the door.","event_only","36","Thanks ","4","caucasian","male","eng",NA,"No clue",5
11995,"11","Son behave.",5,"Please get the manager ",4,"191","Our son was now behaving the way you would expect an 18-month-old to behave after sitting in a high chair for nearly an hour watching other people eat.","event_only","36","Thanks ","4","caucasian","male","eng",NA,"No clue",5
13016,"40","Waitress offer.",6,"None of us are happy with the service we have received ",0,"086","The waitress offered to refill my mother and brother's glasses, but she never asked if I needed one.","event_only","36","Thanks ","4","caucasian","male","eng",NA,"No clue",5
20506,"41","We people.",7,"We were escorted back to the booth we requested. ",1,"243","We're amicable people, and enjoy small-talk with waiters... well, my mum and sister do, I'm hard of hearing so I'm generally quiet.","event_only","36","Thanks ","4","caucasian","male","eng",NA,"No clue",5
12824,"76","She decide.",8,"We were interested in hearing about the specials. ",1,"033","At this point, she finally decides to get off the phone and gets huffy with the waitress about the ""defective teabag'' and how she needs to place her order ""right now because she's in a hurry.''","event_only","36","Thanks ","4","caucasian","male","eng",NA,"No clue",5
52720,"102","Salad deliver.",9,"He asked if we would like to order anything else ",5,"151","The salads with the dinners were delivered before the appetizer we ordered.","event_only","36","Thanks ","4","caucasian","male","eng",NA,"No clue",5
12026,"88","I interrupt.",10,"The group decided to meet around 8pm. ",1,"023","I interrupted her stating, ""I will go get my manager,'' and walked away.","event_only","36","Thanks ","4","caucasian","male","eng",NA,"No clue",5
9213,"20","Couple run.",11,"We were the first ones to show up ",1,"177","A couple of months ago my husband and I were out running errands and decide to meet up with some friends at a local ""Mom & Pop'' restaurant.","event_only","36","Thanks ","4","caucasian","male","eng",NA,"No clue",5
18607,"86","I order.",12,"We all felt that we had ordered enough food for the whole group",1,"248","When it came time to pay she brings our ticket and explains that she rang us up for the pecan pie I had ordered as it was less expensive and what I wanted in the first place, but we noticed that she charged us for our friend's Taco Salad.","event_only","36","Thanks ","4","caucasian","male","eng",NA,"No clue",5
13827,"110","Dish hot.",13,"She decided to think it over before signing. ",1,"050","The dish was not hot and barely palatable; I believe he deliberately left it sitting before he brought it out as there were not enough other customers for the kitchen to be backed up.","event_only","36","Thanks ","4","caucasian","male","eng",NA,"No clue",5
64001,"18","Waiter say.",14,"A few of our guests had to leave early.",0,"271","The waiter said nothing the rest of the evening about us having to leave early, but he was clearly peeved.","event_only","36","Thanks ","4","caucasian","male","eng",NA,"No clue",5
18146,"41","We seat.",15,"A few of has that had been there before made suggestions. ",2,"120","We'd been seated at a booth, but I sat on a regular chair on the outside of the table -- yes, my crazy bubble rules apply to even family members --.","event_only","36","Thanks ","4","caucasian","male","eng",NA,"No clue",5
14107,"22","I order.",16,"We all look forward to getting together. ",0,"153","I ordered a fairly simple meal, and it was only when I opened my wallet that I suddenly realised I had forgotten to go to the bank.","event_only","36","Thanks ","4","caucasian","male","eng",NA,"No clue",5
14508,"29","It happen.",17,"The waitress brough a pitcher out from the bar. ",0,"171","It happened on a bank holiday and I was not at work that day.","event_only","36","Thanks ","4","caucasian","male","eng",NA,"No clue",5
152466,"11","We be.",1,"He asked his son a question, his son answered with a joke and then the parent told the son to behave, and realized that they blamed the son, even though he was kidding.",3,"191","We were out of things for him to do other than sing ""Old MacDonald'' to him, which probably wouldn't have gone over too well with the other patrons.","event_only","31","","3","white","female","eng",NA,"I honestly have no idea.",6
55658,"102","Salad deliver.",2,"They had a negative experience at a restaurant, which they informed the manager of.",5,"151","The salads with the dinners were delivered before the appetizer we ordered.","event_only","31","","3","white","female","eng",NA,"I honestly have no idea.",6
22322,"40","I have.",3,"The waitress offered them something while they were seated.",1,"086","I always had to speak up and try to get her attention for a refill.","event_only","31","","3","white","female","eng",NA,"I honestly have no idea.",6
25265,"18","I tip.",4,"They were going to leave, but the waiter offered them an incentive to stay, so they did.",2,"271","I usually tip well, but I gave the waiter 12%, which actually was too much.","event_only","31","","3","white","female","eng",NA,"I honestly have no idea.",6
22980,"86","I order.",5,"They placed an order and had to wait for what they felt was an unreasonable amount of time.",0,"248","After we ordered the waitress came back and apologized saying they were out of the pecan pie I had ordered.","event_only","31","","3","white","female","eng",NA,"I honestly have no idea.",6
18110,"29","It pour.",6,"Something they were anticipating, but weren't positive would happen, did.",1,"171","It was also pouring with rain outside and the restaurant was very busy with only about two tables free.","event_only","31","","3","white","female","eng",NA,"I honestly have no idea.",6
28672,"125","He stand.",7,"A child went with their parent to an auction, talked to his mother about what she wanted and then he placed a bid for her.",1,"120","He was standing next to me, but I did my best to concentrate on my soda and be polite.","event_only","31","","3","white","female","eng",NA,"I honestly have no idea.",6
59459,"68","He put.",8,"Someone threw something, which made the manager yell, and then the manager to explain what happened and assure a couple to stay.",3,"196","He put the box and the scale down on their table, and proceeded to pull raw steaks out of the box.","event_only","31","","3","white","female","eng",NA,"I honestly have no idea.",6
15009,"10","It be.",9,"The person had to commute outdoors in very cold weather.",0,"025","It was off to a bad start as soon as I walked in the door.","event_only","31","","3","white","female","eng",NA,"I honestly have no idea.",6
24313,"110","Dish hot.",10,"The person's wife retired, but he refused to and wondered why his wife chose to.",1,"050","The dish was not hot and barely palatable; I believe he deliberately left it sitting before he brought it out as there were not enough other customers for the kitchen to be backed up.","event_only","31","","3","white","female","eng",NA,"I honestly have no idea.",6
21651,"76","She break.",11,"She decided to break up with someone.",0,"033","Of course, she breaks the teabag inside.","event_only","31","","3","white","female","eng",NA,"I honestly have no idea.",6
24246,"88","He tell.",12,"There was an argument between a couple.",4,"023","He told her and her husband that he didn't appreciate their rude treatment of his staff, which happened every time they came in.","event_only","31","","3","white","female","eng",NA,"I honestly have no idea.",6
13043,"168","Husband decide.",13,"Someone did something embarrassing in public.",0,"177","My husband and I decided to just order a couple of sodas and desserts as we had a big breakfast earlier in the day and we explained to the waitress that our two orders would be on a separate ticket which seemed to confuse her.","event_only","31","","3","white","female","eng",NA,"I honestly have no idea.",6
15803,"84","Server start.",14,"Someone was impatient and wanted to the time to pass quickly.",1,"063","The server started arguing with my wife, ""I made sure the cook knew it had to be rare... the cook was going to leave it on longer but I made him take it off... etc.'' After a minute or so of listening to them argue about whether the burger was well done or rare, I just picked the burger patty up with both hands, they both stopped and looked at me, and I broke the burger patty in half with an audible snap.","event_only","31","","3","white","female","eng",NA,"I honestly have no idea.",6
28103,"78","You think.",15,"Someone was explaining what human beings, in general, allow others to do to them.",1,"022","If anyone should know better, you'd think it was him, except for his sense of entitlement.","event_only","31","","3","white","female","eng",NA,"I honestly have no idea.",6
17271,"22","It thing.",16,"Someone was placing an order at a restaurant.",1,"153","It was a good thing that they didn't prepare my meal before giving me the price!","event_only","31","","3","white","female","eng",NA,"I honestly have no idea.",6
22239,"21","Waitress come.",17,"Someone made a special request at a restaurant that the waitress had to check up on.",0,"243","After perusing our menus, the waitress came over to take our order.","event_only","31","","3","white","female","eng",NA,"I honestly have no idea.",6
136886,"29","It happen.",1,"It poured rain.",0,"171","It happened on a bank holiday and I was not at work that day.","event_only","23","","4","Asian","male","eng",NA,"I think this HIT was about sentence construction.",7
71760,"18","Waiter say.",2,"We remained in the restaurant to leave a tip.",0,"271","The waiter said nothing the rest of the evening about us having to leave early, but he was clearly peeved.","event_only","23","","4","Asian","male","eng",NA,"I think this HIT was about sentence construction.",7
84668,"47","He mention.",3,"The waiter comes quickly.",1,"025","At that point he also mentioned that the boss likes to sit at the booth I asked to sit in and that's why I couldn't sit there.","event_only","23","","4","Asian","male","eng",NA,"I think this HIT was about sentence construction.",7
92180,"47","He mention.",3,"The waiter comes quickly.",1,"025","At that point he also mentioned that the boss likes to sit at the booth I asked to sit in and that's why I couldn't sit there.","event_only","23","","4","Asian","male","eng",NA,"I think this HIT was about sentence construction.",7
101142,"47","He mention.",3,"Waiter come quick.",1,"025","At that point he also mentioned that the boss likes to sit at the booth I asked to sit in and that's why I couldn't sit there.","event_only","23","","4","Asian","male","eng",NA,"I think this HIT was about sentence construction.",7
33585,"125","He stand.",4,"The mum conversed with her friend.",1,"120","He was standing next to me, but I did my best to concentrate on my soda and be polite.","event_only","23","","4","Asian","male","eng",NA,"I think this HIT was about sentence construction.",7
14679,"11","Son behave.",5,"We blame the criminals.",4,"191","Our son was now behaving the way you would expect an 18-month-old to behave after sitting in a high chair for nearly an hour watching other people eat.","event_only","23","","4","Asian","male","eng",NA,"I think this HIT was about sentence construction.",7
56082,"21","Waitress come.",6,"Waitress looked at him.",0,"243","After perusing our menus, the waitress came over to take our order.","event_only","23","","4","Asian","male","eng",NA,"I think this HIT was about sentence construction.",7
18616,"48","Judge try.",7,"I am the manager.",1,"022","In reality this ""judge'' was trying to hide his martini on the floor.","event_only","23","","4","Asian","male","eng",NA,"I think this HIT was about sentence construction.",7
62996,"76","She break.",8,"She decide who wins.",0,"033","Of course, she breaks the teabag inside.","event_only","23","","4","Asian","male","eng",NA,"I think this HIT was about sentence construction.",7
8570,"40","Waitress offer.",9,"I have money.",0,"086","The waitress offered to refill my mother and brother's glasses, but she never asked if I needed one.","event_only","23","","4","Asian","male","eng",NA,"I think this HIT was about sentence construction.",7
12587,"84","Seconds come.",10,"Server start soon.",0,"063","A few seconds later the server came to check on us and asked how our food was.","event_only","23","","4","Asian","male","eng",NA,"I think this HIT was about sentence construction.",7
12767,"68","He throw.",11,"He put the headphones on.",5,"196","He then would throw that steak on the table, get another one out of the box, throw it on the scale, and again, exclaim:  ""10 ounces!''","event_only","23","","4","Asian","male","eng",NA,"I think this HIT was about sentence construction.",7
20558,"88","He tell.",12,"I go to the room.",5,"023","He told them they were no longer welcome.","event_only","23","","4","Asian","male","eng",NA,"I think this HIT was about sentence construction.",7
9647,"102","Salad deliver.",13,"We order two Cokes.",5,"151","The salads with the dinners were delivered before the appetizer we ordered.","event_only","23","","4","Asian","male","eng",NA,"I think this HIT was about sentence construction.",7
18599,"86","I order.",14,"I order a pizza.",0,"248","After we ordered the waitress came back and apologized saying they were out of the pecan pie I had ordered.","event_only","23","","4","Asian","male","eng",NA,"I think this HIT was about sentence construction.",7
21168,"110","Dish hot.",15,"I wonder who will win.",1,"050","The dish was not hot and barely palatable; I believe he deliberately left it sitting before he brought it out as there were not enough other customers for the kitchen to be backed up.","event_only","23","","4","Asian","male","eng",NA,"I think this HIT was about sentence construction.",7
91438,"20","Couple run.",16,"Mother go to bed.",1,"177","A couple of months ago my husband and I were out running errands and decide to meet up with some friends at a local ""Mom & Pop'' restaurant.","event_only","23","","4","Asian","male","eng",NA,"I think this HIT was about sentence construction.",7
34017,"22","It thing.",17,"I order a sandwich.",1,"153","It was a good thing that they didn't prepare my meal before giving me the price!","event_only","23","","4","Asian","male","eng",NA,"I think this HIT was about sentence construction.",7
76452,"110","I wonder, however, what we could have done differently to avoid his attitude.",1,"We just wanted a nice meal, but instead we have a terrible service.",3,"050","I wonder, however, what we could have done differently to avoid his attitude.","original","23","it was kinda long for the pay.","4","vietnamese","female","eng+other",NA,"filling in sentences",8
68421,"41","The food was good, the service was good, we had a fun time.",2,"The waiter came and seated us.",0,"243","The food was good, the service was good, we had a fun time.","original","23","it was kinda long for the pay.","4","vietnamese","female","eng+other",NA,"filling in sentences",8
18030,"78","If anyone should know better, you'd think it was him, except for his sense of entitlement.",3,"We ended up with a goodnight.",1,"022","If anyone should know better, you'd think it was him, except for his sense of entitlement.","original","23","it was kinda long for the pay.","4","vietnamese","female","eng+other",NA,"filling in sentences",8
20824,"76","Of course, she breaks the teabag inside.",4,"She has been talking on the phone all night.",0,"033","Of course, she breaks the teabag inside.","original","23","it was kinda long for the pay.","4","vietnamese","female","eng+other",NA,"filling in sentences",8
24512,"40","The waitress offered to refill my mother and brother's glasses, but she never asked if I needed one.",5,"I kept waiting but it took awhile to get the waiter's attention.",0,"086","The waitress offered to refill my mother and brother's glasses, but she never asked if I needed one.","original","23","it was kinda long for the pay.","4","vietnamese","female","eng+other",NA,"filling in sentences",8
28565,"84","The server started arguing with my wife, ""I made sure the cook knew it had to be rare... the cook was going to leave it on longer but I made him take it off... etc.'' After a minute or so of listening to them argue about whether the burger was well done or rare, I just picked the burger patty up with both hands, they both stopped and looked at me, and I broke the burger patty in half with an audible snap.",6,"I have been sitting there eating my food silently.",1,"063","The server started arguing with my wife, ""I made sure the cook knew it had to be rare... the cook was going to leave it on longer but I made him take it off... etc.'' After a minute or so of listening to them argue about whether the burger was well done or rare, I just picked the burger patty up with both hands, they both stopped and looked at me, and I broke the burger patty in half with an audible snap.","original","23","it was kinda long for the pay.","4","vietnamese","female","eng+other",NA,"filling in sentences",8
22754,"22","I ordered a fairly simple meal, and it was only when I opened my wallet that I suddenly realised I had forgotten to go to the bank.",7,"The price of the menu was absolutely ridiculous.",0,"153","I ordered a fairly simple meal, and it was only when I opened my wallet that I suddenly realised I had forgotten to go to the bank.","original","23","it was kinda long for the pay.","4","vietnamese","female","eng+other",NA,"filling in sentences",8
20040,"10","It's freezing this time of year so I didn't want to sit near the door.",8,"I can tell by the emptiness of the restaurant that it wouldn't be good.",1,"025","It's freezing this time of year so I didn't want to sit near the door.","original","23","it was kinda long for the pay.","4","vietnamese","female","eng+other",NA,"filling in sentences",8
15256,"62","At this point I'm just sticking around to watch the show.",9,"I looked on the table and I noticed a tissue.",0,"151","At this point I'm just sticking around to watch the show.","original","23","it was kinda long for the pay.","4","vietnamese","female","eng+other",NA,"filling in sentences",8
62385,"68","He put the box and the scale down on their table, and proceeded to pull raw steaks out of the box.",10,"The man asked the manager, how do they know for sure they were 10 oz.",3,"196","He put the box and the scale down on their table, and proceeded to pull raw steaks out of the box.","original","23","it was kinda long for the pay.","4","vietnamese","female","eng+other",NA,"filling in sentences",8
32097,"29","It happened on a bank holiday and I was not at work that day.",11,"I was walking outside and noticed a restaurant.",0,"171","It happened on a bank holiday and I was not at work that day.","original","23","it was kinda long for the pay.","4","vietnamese","female","eng+other",NA,"filling in sentences",8
39508,"41","The food was good, the service was good, we had a fun time.",12,"My family has gotten me to go to a restaurant.",0,"120","The food was good, the service was good, we had a fun time.","original","23","it was kinda long for the pay.","4","vietnamese","female","eng+other",NA,"filling in sentences",8
35546,"88","He told her and her husband that he didn't appreciate their rude treatment of his staff, which happened every time they came in.",13,"However the customers were still upset.",4,"023","He told her and her husband that he didn't appreciate their rude treatment of his staff, which happened every time they came in.","original","23","it was kinda long for the pay.","4","vietnamese","female","eng+other",NA,"filling in sentences",8
43289,"168","I was so embarrassed by the spectacle she made us into that I just wanted to leave.",14,"It may be strange to most people, but we like to keep track of our own food bills.",2,"177","I was so embarrassed by the spectacle she made us into that I just wanted to leave.","original","23","it was kinda long for the pay.","4","vietnamese","female","eng+other",NA,"filling in sentences",8
32314,"86","After we ordered the waitress came back and apologized saying they were out of the pecan pie I had ordered.",15,"I was waving to the waitress that we needed our bill.",0,"248","After we ordered the waitress came back and apologized saying they were out of the pecan pie I had ordered.","original","23","it was kinda long for the pay.","4","vietnamese","female","eng+other",NA,"filling in sentences",8
31104,"133","We waited some more, but only until we could snag our waiter, who was now quite a bit busier, since nearly an hour had passed and many more people had come in.",16,"We were all sitting there impatiently and upset that our food has not arrived.",0,"191","We waited some more, but only until we could snag our waiter, who was now quite a bit busier, since nearly an hour had passed and many more people had come in.","original","23","it was kinda long for the pay.","4","vietnamese","female","eng+other",NA,"filling in sentences",8
46042,"18","Just to spite him, we remained at our table for nearly 3 hours.",17,"This was the worse experience I ever had a restaurant.",1,"271","Just to spite him, we remained at our table for nearly 3 hours.","original","23","it was kinda long for the pay.","4","vietnamese","female","eng+other",NA,"filling in sentences",8
54710,"84","Seconds come.",1,"The web server was turned on.",0,"063","A few seconds later the server came to check on us and asked how our food was.","caveman","31","This took 10 minutes, way too long for $0.50, I had expected much better from your previous reputation.","4","white","female","eng",NA,"don't know",9
46018,"40","Waitress offer.",2,"Did you get an acceptance letter yet?",0,"086","The waitress offered to refill my mother and brother's glasses, but she never asked if I needed one.","caveman","31","This took 10 minutes, way too long for $0.50, I had expected much better from your previous reputation.","4","white","female","eng",NA,"don't know",9
39499,"102","We start on way.",3,"I asked to speak to a manager.",7,"151","We started on our way out of the restaurant.","caveman","31","This took 10 minutes, way too long for $0.50, I had expected much better from your previous reputation.","4","white","female","eng",NA,"don't know",9
34661,"48","Judge try in reality.",4,"I run this place.",1,"022","In reality this ""judge'' was trying to hide his martini on the floor.","caveman","31","This took 10 minutes, way too long for $0.50, I had expected much better from your previous reputation.","4","white","female","eng",NA,"don't know",9
16081,"41","Food good.",5,"We decided which restaurant to go to.",0,"243","The food was good, the service was good, we had a fun time.","caveman","31","This took 10 minutes, way too long for $0.50, I had expected much better from your previous reputation.","4","white","female","eng",NA,"don't know",9
23733,"18","Waiter say.",6,"We went to a restaurant with free WiFi.",0,"271","The waiter said nothing the rest of the evening about us having to leave early, but he was clearly peeved.","caveman","31","This took 10 minutes, way too long for $0.50, I had expected much better from your previous reputation.","4","white","female","eng",NA,"don't know",9
31026,"68","Manager shout after they.",7,"He leaves without paying.",6,"196","The manager shouted after them that they had not paid their bill, and the man shouted back something that I can't repeat on a family site.","caveman","31","This took 10 minutes, way too long for $0.50, I had expected much better from your previous reputation.","4","white","female","eng",NA,"don't know",9
14940,"88","I interrupt.",8,"He explains.",1,"023","I interrupted her stating, ""I will go get my manager,'' and walked away.","caveman","31","This took 10 minutes, way too long for $0.50, I had expected much better from your previous reputation.","4","white","female","eng",NA,"don't know",9
25143,"20","Couple run.",9,"They go to a restaurant.",1,"177","A couple of months ago my husband and I were out running errands and decide to meet up with some friends at a local ""Mom & Pop'' restaurant.","caveman","31","This took 10 minutes, way too long for $0.50, I had expected much better from your previous reputation.","4","white","female","eng",NA,"don't know",9
19398,"133","We wait.",10,"We wanted to win.",0,"191","We waited some more, but only until we could snag our waiter, who was now quite a bit busier, since nearly an hour had passed and many more people had come in.","caveman","31","This took 10 minutes, way too long for $0.50, I had expected much better from your previous reputation.","4","white","female","eng",NA,"don't know",9
13174,"47","He mention.",11,"They ate their meal.",1,"025","At that point he also mentioned that the boss likes to sit at the booth I asked to sit in and that's why I couldn't sit there.","caveman","31","This took 10 minutes, way too long for $0.50, I had expected much better from your previous reputation.","4","white","female","eng",NA,"don't know",9
15547,"41","Food good.",12,"We picked a restaurant.",0,"120","The food was good, the service was good, we had a fun time.","caveman","31","This took 10 minutes, way too long for $0.50, I had expected much better from your previous reputation.","4","white","female","eng",NA,"don't know",9
17309,"76","She break.",13,"She doesn't know what to do.",0,"033","Of course, she breaks the teabag inside.","caveman","31","This took 10 minutes, way too long for $0.50, I had expected much better from your previous reputation.","4","white","female","eng",NA,"don't know",9
20779,"22","I order.",14,"It was a mystery.",0,"153","I ordered a fairly simple meal, and it was only when I opened my wallet that I suddenly realised I had forgotten to go to the bank.","caveman","31","This took 10 minutes, way too long for $0.50, I had expected much better from your previous reputation.","4","white","female","eng",NA,"don't know",9
14047,"86","I order.",15,"The restaurant is very busy.",1,"248","When it came time to pay she brings our ticket and explains that she rang us up for the pecan pie I had ordered as it was less expensive and what I wanted in the first place, but we noticed that she charged us for our friend's Taco Salad.","caveman","31","This took 10 minutes, way too long for $0.50, I had expected much better from your previous reputation.","4","white","female","eng",NA,"don't know",9
17557,"110","Dish not hot.",16,"She wants us to buy an RV.",1,"050","The dish was not hot and barely palatable; I believe he deliberately left it sitting before he brought it out as there were not enough other customers for the kitchen to be backed up.","caveman","31","This took 10 minutes, way too long for $0.50, I had expected much better from your previous reputation.","4","white","female","eng",NA,"don't know",9
21749,"58","It freezing.",17,"I went to a restaurant.",0,"171","It's freezing this time of year so I didn't want to sit near the door.","caveman","31","This took 10 minutes, way too long for $0.50, I had expected much better from your previous reputation.","4","white","female","eng",NA,"don't know",9
77105,"76","She break.",1,"Where to go for dinner?As usual,",0,"033","Of course, she breaks the teabag inside.","event_only","33","","3","Wh","female","eng+other",NA,"Not sure",10
64405,"78","You think.",2,"We allow our server to give us more details about the special of the day",1,"022","If anyone should know better, you'd think it was him, except for his sense of entitlement.","event_only","33","","3","Wh","female","eng+other",NA,"Not sure",10
39907,"86","I order.",3,"Something went terribly wrong",1,"248","When it came time to pay she brings our ticket and explains that she rang us up for the pecan pie I had ordered as it was less expensive and what I wanted in the first place, but we noticed that she charged us for our friend's Taco Salad.","event_only","33","","3","Wh","female","eng+other",NA,"Not sure",10
69373,"29","It pour.",4,"It happened that that particular Mondays that Chinese restaurant was c losed",1,"171","It was also pouring with rain outside and the restaurant was very busy with only about two tables free.","event_only","33","","3","Wh","female","eng+other",NA,"Not sure",10
42058,"110","I wonder.",5,"I refused to pay the bill!",3,"050","I wonder, however, what we could have done differently to avoid his attitude.","event_only","33","","3","Wh","female","eng+other",NA,"Not sure",10
39915,"125","He stand.",6,"That was the make or break moment",1,"120","He was standing next to me, but I did my best to concentrate on my soda and be polite.","event_only","33","","3","Wh","female","eng+other",NA,"Not sure",10
35890,"168","Husband decide.",7,"My pants somehow dropped",0,"177","My husband and I decided to just order a couple of sodas and desserts as we had a big breakfast earlier in the day and we explained to the waitress that our two orders would be on a separate ticket which seemed to confuse her.","event_only","33","","3","Wh","female","eng+other",NA,"Not sure",10
33484,"10","It freezing.",8,"And indeed it was so.",1,"025","It's freezing this time of year so I didn't want to sit near the door.","event_only","33","","3","Wh","female","eng+other",NA,"Not sure",10
58718,"84","Server start.",9,"the moment we had been waiting for finally arrived",1,"063","The server started arguing with my wife, ""I made sure the cook knew it had to be rare... the cook was going to leave it on longer but I made him take it off... etc.'' After a minute or so of listening to them argue about whether the burger was well done or rare, I just picked the burger patty up with both hands, they both stopped and looked at me, and I broke the burger patty in half with an audible snap.","event_only","33","","3","Wh","female","eng+other",NA,"Not sure",10
15956,"133","We wait.",10,"Things did not seem clear.",0,"191","We waited some more, but only until we could snag our waiter, who was now quite a bit busier, since nearly an hour had passed and many more people had come in.","event_only","33","","3","Wh","female","eng+other",NA,"Not sure",10
48794,"22","It thing.",11,"I could not wait to taste that delicious burrito",1,"153","It was a good thing that they didn't prepare my meal before giving me the price!","event_only","33","","3","Wh","female","eng+other",NA,"Not sure",10
23847,"62","I stick.",12,"What happened next was really funny.",0,"151","At this point I'm just sticking around to watch the show.","event_only","33","","3","Wh","female","eng+other",NA,"Not sure",10
23011,"68","Manager shout.",13,"He was not at all satisfied",6,"196","The manager shouted after them that they had not paid their bill, and the man shouted back something that I can't repeat on a family site.","event_only","33","","3","Wh","female","eng+other",NA,"Not sure",10
35064,"41","We people.",14,"We were very hungry",1,"243","We're amicable people, and enjoy small-talk with waiters... well, my mum and sister do, I'm hard of hearing so I'm generally quiet.","event_only","33","","3","Wh","female","eng+other",NA,"Not sure",10
50512,"40","I have.",15,"We decided not to have a dessert",1,"086","I always had to speak up and try to get her attention for a refill.","event_only","33","","3","Wh","female","eng+other",NA,"Not sure",10
50798,"88","He tell.",16,"He comes back to the table",4,"023","He told her and her husband that he didn't appreciate their rude treatment of his staff, which happened every time they came in.","event_only","33","","3","Wh","female","eng+other",NA,"Not sure",10
16579,"18","I tip.",17,"We made a good choice",2,"271","I usually tip well, but I gave the waiter 12%, which actually was too much.","event_only","33","","3","Wh","female","eng+other",NA,"Not sure",10
25492,"58","It freezing.",1,"I come.",0,"171","It's freezing this time of year so I didn't want to sit near the door.","caveman","32","","3","white","male","eng",NA,"",11
16898,"76","She decide.",2,"I break.",1,"033","At this point, she finally decides to get off the phone and gets huffy with the waitress about the ""defective teabag'' and how she needs to place her order ""right now because she's in a hurry.''","caveman","32","","3","white","male","eng",NA,"",11
16243,"22","It thing.",3,"I eat.",1,"153","It was a good thing that they didn't prepare my meal before giving me the price!","caveman","32","","3","white","male","eng",NA,"",11
56479,"11","We be.",4,"Son bad.",3,"191","We were out of things for him to do other than sing ""Old MacDonald'' to him, which probably wouldn't have gone over too well with the other patrons.","caveman","32","","3","white","male","eng",NA,"",11
24693,"18","We remain for hour to spite.",5,"I pay.",1,"271","Just to spite him, we remained at our table for nearly 3 hours.","caveman","32","","3","white","male","eng",NA,"",11
26426,"102","We start on way.",6,"Salad back.",7,"151","We started on our way out of the restaurant.","caveman","32","","3","white","male","eng",NA,"",11
29146,"86","I order.",7,"They order.",1,"248","When it came time to pay she brings our ticket and explains that she rang us up for the pecan pie I had ordered as it was less expensive and what I wanted in the first place, but we noticed that she charged us for our friend's Taco Salad.","caveman","32","","3","white","male","eng",NA,"",11
17621,"68","Manager shout after they.",8,"He leave.",6,"196","The manager shouted after them that they had not paid their bill, and the man shouted back something that I can't repeat on a family site.","caveman","32","","3","white","male","eng",NA,"",11
16501,"40","Waitress offer.",9,"I like.",0,"086","The waitress offered to refill my mother and brother's glasses, but she never asked if I needed one.","caveman","32","","3","white","male","eng",NA,"",11
10261,"84","Seconds come.",10,"Food come.",0,"063","A few seconds later the server came to check on us and asked how our food was.","caveman","32","","3","white","male","eng",NA,"",11
18565,"41","Food good.",11,"We hungry.",0,"120","The food was good, the service was good, we had a fun time.","caveman","32","","3","white","male","eng",NA,"",11
12453,"110","I wonder.",12,"She mad.",3,"050","I wonder, however, what we could have done differently to avoid his attitude.","caveman","32","","3","white","male","eng",NA,"",11
12785,"48","Judge try in reality.",13,"I work.",1,"022","In reality this ""judge'' was trying to hide his martini on the floor.","caveman","32","","3","white","male","eng",NA,"",11
9899,"88","He tell.",14,"I lie.",4,"023","He told her and her husband that he didn't appreciate their rude treatment of his staff, which happened every time they came in.","caveman","32","","3","white","male","eng",NA,"",11
11113,"10","It be.",15,"It cold.",0,"025","It was off to a bad start as soon as I walked in the door.","caveman","32","","3","white","male","eng",NA,"",11
14416,"41","We people.",16,"We eat.",1,"243","We're amicable people, and enjoy small-talk with waiters... well, my mum and sister do, I'm hard of hearing so I'm generally quiet.","caveman","32","","3","white","male","eng",NA,"",11
8171,"168","I embarrassed.",17,"She mad.",2,"177","I was so embarrassed by the spectacle she made us into that I just wanted to leave.","caveman","32","","3","white","male","eng",NA,"",11
41071,"78","We not allow.",1,"You think you was correct, but really you had it all wrong.",0,"022","As I said, we did not allow it to tarnish our evening.","caveman","19","","2","White","male","eng",NA,"To see if someone could accurately guess a sentence with few clues to the surrounding sentences.",12
44601,"88","He tell.",2,"Then he looks at what he took out of my hands.",4,"023","He told her and her husband that he didn't appreciate their rude treatment of his staff, which happened every time they came in.","caveman","19","","2","White","male","eng",NA,"To see if someone could accurately guess a sentence with few clues to the surrounding sentences.",12
25421,"40","Waitress offer.",3,"I have never felt so lively, today was a wonderful day.",0,"086","The waitress offered to refill my mother and brother's glasses, but she never asked if I needed one.","caveman","19","","2","White","male","eng",NA,"To see if someone could accurately guess a sentence with few clues to the surrounding sentences.",12
19622,"168","Husband decide.",4,"When I walked into the cafeteria I dropped my plate.",0,"177","My husband and I decided to just order a couple of sodas and desserts as we had a big breakfast earlier in the day and we explained to the waitress that our two orders would be on a separate ticket which seemed to confuse her.","caveman","19","","2","White","male","eng",NA,"To see if someone could accurately guess a sentence with few clues to the surrounding sentences.",12
18111,"110","Dish not hot.",5,"My wife is talking to me about retiring from work.",1,"050","The dish was not hot and barely palatable; I believe he deliberately left it sitting before he brought it out as there were not enough other customers for the kitchen to be backed up.","caveman","19","","2","White","male","eng",NA,"To see if someone could accurately guess a sentence with few clues to the surrounding sentences.",12
15583,"125","He stand to i.",6,"The waiter asks me what I would like to order.",1,"120","He was standing next to me, but I did my best to concentrate on my soda and be polite.","caveman","19","","2","White","male","eng",NA,"To see if someone could accurately guess a sentence with few clues to the surrounding sentences.",12
20247,"29","It happen on holiday.",7,"As I walked out side the rain began to pour like mad.",0,"171","It happened on a bank holiday and I was not at work that day.","caveman","19","","2","White","male","eng",NA,"To see if someone could accurately guess a sentence with few clues to the surrounding sentences.",12
14053,"22","It thing.",8,"I was in the drive-thru at Mcdonalds, I placed my order.",1,"153","It was a good thing that they didn't prepare my meal before giving me the price!","caveman","19","","2","White","male","eng",NA,"To see if someone could accurately guess a sentence with few clues to the surrounding sentences.",12
39333,"86","I order.",9,"I sat down at the table in the restaurant.",0,"248","After we ordered the waitress came back and apologized saying they were out of the pecan pie I had ordered.","caveman","19","","2","White","male","eng",NA,"To see if someone could accurately guess a sentence with few clues to the surrounding sentences.",12
53781,"68","Manager shout after they.",10,"After he threw the ticket he stormed out of the place.",6,"196","The manager shouted after them that they had not paid their bill, and the man shouted back something that I can't repeat on a family site.","caveman","19","","2","White","male","eng",NA,"To see if someone could accurately guess a sentence with few clues to the surrounding sentences.",12
16454,"41","We people.",11,"We talk while we walk towards the table.",1,"243","We're amicable people, and enjoy small-talk with waiters... well, my mum and sister do, I'm hard of hearing so I'm generally quiet.","caveman","19","","2","White","male","eng",NA,"To see if someone could accurately guess a sentence with few clues to the surrounding sentences.",12
17037,"84","Seconds come.",12,"We stop talking at the waiter approaches the table.",0,"063","A few seconds later the server came to check on us and asked how our food was.","caveman","19","","2","White","male","eng",NA,"To see if someone could accurately guess a sentence with few clues to the surrounding sentences.",12
17990,"76","She break.",13,"She had just to make her decision on the menu but was getting close.",0,"033","Of course, she breaks the teabag inside.","caveman","19","","2","White","male","eng",NA,"To see if someone could accurately guess a sentence with few clues to the surrounding sentences.",12
9726,"10","It freezing.",14,"It was a great experience.",1,"025","It's freezing this time of year so I didn't want to sit near the door.","caveman","19","","2","White","male","eng",NA,"To see if someone could accurately guess a sentence with few clues to the surrounding sentences.",12
15203,"62","I stick.",15,"I looked down at my salad and noticed something.",0,"151","At this point I'm just sticking around to watch the show.","caveman","19","","2","White","male","eng",NA,"To see if someone could accurately guess a sentence with few clues to the surrounding sentences.",12
21598,"18","Waiter say.",16,"We started another conversation while we ate.",0,"271","The waiter said nothing the rest of the evening about us having to leave early, but he was clearly peeved.","caveman","19","","2","White","male","eng",NA,"To see if someone could accurately guess a sentence with few clues to the surrounding sentences.",12
13413,"11","We be.",17,"I told my son not to do that again.",3,"191","We were out of things for him to do other than sing ""Old MacDonald'' to him, which probably wouldn't have gone over too well with the other patrons.","caveman","19","","2","White","male","eng",NA,"To see if someone could accurately guess a sentence with few clues to the surrounding sentences.",12
76474,"11","We be.",1,"But I told him there would be certain conditions he would need to meet.",3,"191","We were out of things for him to do other than sing ""Old MacDonald'' to him, which probably wouldn't have gone over too well with the other patrons.","caveman","35","","4","white","female","eng",NA,"How people think creatively.",13
35439,"20","Couple run.",2,"It would be a dream come true despite the details to work out.",1,"177","A couple of months ago my husband and I were out running errands and decide to meet up with some friends at a local ""Mom & Pop'' restaurant.","caveman","35","","4","white","female","eng",NA,"How people think creatively.",13
20983,"125","He stand to i.",3,"She said not to worry about it.",1,"120","He was standing next to me, but I did my best to concentrate on my soda and be polite.","caveman","35","","4","white","female","eng",NA,"How people think creatively.",13
22579,"62","I stick.",4,"We left at the same time.",0,"151","At this point I'm just sticking around to watch the show.","caveman","35","","4","white","female","eng",NA,"How people think creatively.",13
15309,"78","You think.",5,"We had to leave our dog outside in the car.",1,"022","If anyone should know better, you'd think it was him, except for his sense of entitlement.","caveman","35","","4","white","female","eng",NA,"How people think creatively.",13
16260,"76","She break.",6,"We discussed it at length. ",0,"033","Of course, she breaks the teabag inside.","caveman","35","","4","white","female","eng",NA,"How people think creatively.",13
16064,"86","I order.",7,"We were in a hurry.",1,"248","When it came time to pay she brings our ticket and explains that she rang us up for the pecan pie I had ordered as it was less expensive and what I wanted in the first place, but we noticed that she charged us for our friend's Taco Salad.","caveman","35","","4","white","female","eng",NA,"How people think creatively.",13
18072,"68","Manager shout after they.",8,"I thought to myself that it was a waste of food.",6,"196","The manager shouted after them that they had not paid their bill, and the man shouted back something that I can't repeat on a family site.","caveman","35","","4","white","female","eng",NA,"How people think creatively.",13
19925,"41","We people.",9,"The atmosphere was warm and welcoming.",1,"243","We're amicable people, and enjoy small-talk with waiters... well, my mum and sister do, I'm hard of hearing so I'm generally quiet.","caveman","35","","4","white","female","eng",NA,"How people think creatively.",13
13219,"88","He tell.",10,"I thought about it for some time.",5,"023","He told them they were no longer welcome.","caveman","35","","4","white","female","eng",NA,"How people think creatively.",13
14398,"18","We remain for hour to spite.",11,"The entire experience was lovely.",1,"271","Just to spite him, we remained at our table for nearly 3 hours.","caveman","35","","4","white","female","eng",NA,"How people think creatively.",13
20636,"40","Waitress offer.",12,"Do have any batteries left?",0,"086","The waitress offered to refill my mother and brother's glasses, but she never asked if I needed one.","caveman","35","","4","white","female","eng",NA,"How people think creatively.",13
18746,"29","It pour with rain.",13,"You never know what to expect this time of year.",1,"171","It was also pouring with rain outside and the restaurant was very busy with only about two tables free.","caveman","35","","4","white","female","eng",NA,"How people think creatively.",13
25375,"22","It thing.",14,"We relaxed and took our time when the meal arrived.",1,"153","It was a good thing that they didn't prepare my meal before giving me the price!","caveman","35","","4","white","female","eng",NA,"How people think creatively.",13
31253,"110","I refuse.",15,"She usually doesn't like a sink of dirty dishes being left.",2,"050","I refused but also declined to tip the culprit.","caveman","35","","4","white","female","eng",NA,"How people think creatively.",13
21758,"84","Server start.",16,"I stopped the watch just in time.",1,"063","The server started arguing with my wife, ""I made sure the cook knew it had to be rare... the cook was going to leave it on longer but I made him take it off... etc.'' After a minute or so of listening to them argue about whether the burger was well done or rare, I just picked the burger patty up with both hands, they both stopped and looked at me, and I broke the burger patty in half with an audible snap.","caveman","35","","4","white","female","eng",NA,"How people think creatively.",13
13086,"47","He mention.",17,"We both ordered the same thing.",1,"025","At that point he also mentioned that the boss likes to sit at the booth I asked to sit in and that's why I couldn't sit there.","caveman","35","","4","white","female","eng",NA,"How people think creatively.",13
59132,"68","He throw.",1,"We asked for our meal to be comped.",5,"196","He then would throw that steak on the table, get another one out of the box, throw it on the scale, and again, exclaim:  ""10 ounces!''","event_only","34","no","4","Asian","female","eng+other",NA,"I don't know",14
84165,"68","He throw.",1,"They asked for their meal to be comped.",5,"196","He then would throw that steak on the table, get another one out of the box, throw it on the scale, and again, exclaim:  ""10 ounces!''","event_only","34","no","4","Asian","female","eng+other",NA,"I don't know",14
18106,"168","Husband decide.",2,"I dropped the plate.",0,"177","My husband and I decided to just order a couple of sodas and desserts as we had a big breakfast earlier in the day and we explained to the waitress that our two orders would be on a separate ticket which seemed to confuse her.","event_only","34","no","4","Asian","female","eng+other",NA,"I don't know",14
20378,"11","We be.",3,"I told my son to sit down or else we'd leave.",3,"191","We were out of things for him to do other than sing ""Old MacDonald'' to him, which probably wouldn't have gone over too well with the other patrons.","event_only","34","no","4","Asian","female","eng+other",NA,"I don't know",14
15266,"88","He tell.",4,"I asked for the specials.",4,"023","He told her and her husband that he didn't appreciate their rude treatment of his staff, which happened every time they came in.","event_only","34","no","4","Asian","female","eng+other",NA,"I don't know",14
43657,"78","You think.",5,"They asked if we would switch tables. ",1,"022","If anyone should know better, you'd think it was him, except for his sense of entitlement.","event_only","34","no","4","Asian","female","eng+other",NA,"I don't know",14
15896,"18","Waiter say.",6,"We finished our meal and waited for the bill.",0,"271","The waiter said nothing the rest of the evening about us having to leave early, but he was clearly peeved.","event_only","34","no","4","Asian","female","eng+other",NA,"I don't know",14
13254,"102","Salad deliver.",7,"Our waited asked how our food tasted.",5,"151","The salads with the dinners were delivered before the appetizer we ordered.","event_only","34","no","4","Asian","female","eng+other",NA,"I don't know",14
16303,"110","I wonder.",8,"The waiter brought us free dessert anyway.",3,"050","I wonder, however, what we could have done differently to avoid his attitude.","event_only","34","no","4","Asian","female","eng+other",NA,"I don't know",14
14307,"41","We people.",9,"We asked for a table for two.",1,"243","We're amicable people, and enjoy small-talk with waiters... well, my mum and sister do, I'm hard of hearing so I'm generally quiet.","event_only","34","no","4","Asian","female","eng+other",NA,"I don't know",14
11646,"125","He stand.",10,"She looked over the menu.",1,"120","He was standing next to me, but I did my best to concentrate on my soda and be polite.","event_only","34","no","4","Asian","female","eng+other",NA,"I don't know",14
10646,"76","She break.",11,"The waiter read us the specials.",0,"033","Of course, she breaks the teabag inside.","event_only","34","no","4","Asian","female","eng+other",NA,"I don't know",14
13261,"40","Waitress offer.",12,"Our waiter asked if we'd been here before.",0,"086","The waitress offered to refill my mother and brother's glasses, but she never asked if I needed one.","event_only","34","no","4","Asian","female","eng+other",NA,"I don't know",14
5661,"84","Seconds come.",13,"We sat down.",0,"063","A few seconds later the server came to check on us and asked how our food was.","event_only","34","no","4","Asian","female","eng+other",NA,"I don't know",14
18135,"22","It thing.",14,"I looked over the menu.",1,"153","It was a good thing that they didn't prepare my meal before giving me the price!","event_only","34","no","4","Asian","female","eng+other",NA,"I don't know",14
13045,"10","It be.",15,"The restaurant had the AC turned up high.",0,"025","It was off to a bad start as soon as I walked in the door.","event_only","34","no","4","Asian","female","eng+other",NA,"I don't know",14
10508,"58","It freezing.",16,"We quickly got a table. ",0,"171","It's freezing this time of year so I didn't want to sit near the door.","event_only","34","no","4","Asian","female","eng+other",NA,"I don't know",14
18564,"86","I order.",17,"We made a reservation and got a table quickly.",0,"248","After we ordered the waitress came back and apologized saying they were out of the pecan pie I had ordered.","event_only","34","no","4","Asian","female","eng+other",NA,"I don't know",14
33953,"22","It thing.",1,"Why do you care about what I order",1,"153","It was a good thing that they didn't prepare my meal before giving me the price!","caveman","21","no","2","white","female","eng",NA,"not sure",15
10915,"84","Server start.",2,"You'll be able to see in seconds come",1,"063","The server started arguing with my wife, ""I made sure the cook knew it had to be rare... the cook was going to leave it on longer but I made him take it off... etc.'' After a minute or so of listening to them argue about whether the burger was well done or rare, I just picked the burger patty up with both hands, they both stopped and looked at me, and I broke the burger patty in half with an audible snap.","caveman","21","no","2","white","female","eng",NA,"not sure",15
21558,"168","I embarrassed.",3,"As for what women order, a lot of them let their husband decide.",2,"177","I was so embarrassed by the spectacle she made us into that I just wanted to leave.","caveman","21","no","2","white","female","eng",NA,"not sure",15
26736,"110","I refuse.",4,"Why would my wife retire.",2,"050","I refused but also declined to tip the culprit.","caveman","21","no","2","white","female","eng",NA,"not sure",15
15250,"68","He throw.",5,"WHo could this couple be.",5,"196","He then would throw that steak on the table, get another one out of the box, throw it on the scale, and again, exclaim:  ""10 ounces!''","caveman","21","no","2","white","female","eng",NA,"not sure",15
6770,"125","He stand to i.",6,"which one should we keep",1,"120","He was standing next to me, but I did my best to concentrate on my soda and be polite.","caveman","21","no","2","white","female","eng",NA,"not sure",15
11919,"29","It pour with rain.",7,"When did it happen on holiday",1,"171","It was also pouring with rain outside and the restaurant was very busy with only about two tables free.","caveman","21","no","2","white","female","eng",NA,"not sure",15
5156,"76","She decide.",8,"what bone did she break",1,"033","At this point, she finally decides to get off the phone and gets huffy with the waitress about the ""defective teabag'' and how she needs to place her order ""right now because she's in a hurry.''","caveman","21","no","2","white","female","eng",NA,"not sure",15
20234,"11","Son behave.",9,"what would we be",4,"191","Our son was now behaving the way you would expect an 18-month-old to behave after sitting in a high chair for nearly an hour watching other people eat.","caveman","21","no","2","white","female","eng",NA,"not sure",15
6812,"86","I order.",10,"What soup should I order",0,"248","After we ordered the waitress came back and apologized saying they were out of the pecan pie I had ordered.","caveman","21","no","2","white","female","eng",NA,"not sure",15
6552,"40","I have.",11,"what soup did the waitress offer",1,"086","I always had to speak up and try to get her attention for a refill.","caveman","21","no","2","white","female","eng",NA,"not sure",15
11347,"40","I have.",11,"what soup did the waitress offer",1,"086","I always had to speak up and try to get her attention for a refill.","caveman","21","no","2","white","female","eng",NA,"not sure",15
5642,"88","I interrupt.",12,"where should i go.",1,"023","I interrupted her stating, ""I will go get my manager,'' and walked away.","caveman","21","no","2","white","female","eng",NA,"not sure",15
8410,"18","Waiter say.",13,"How much should i tip",0,"271","The waiter said nothing the rest of the evening about us having to leave early, but he was clearly peeved.","caveman","21","no","2","white","female","eng",NA,"not sure",15
7041,"47","He mention.",14,"when will the waiter come",1,"025","At that point he also mentioned that the boss likes to sit at the booth I asked to sit in and that's why I couldn't sit there.","caveman","21","no","2","white","female","eng",NA,"not sure",15
11848,"41","Food good.",15,"what did she ask",0,"243","The food was good, the service was good, we had a fun time.","caveman","21","no","2","white","female","eng",NA,"not sure",15
22608,"41","Food good.",15,"what did she ask",0,"243","The food was good, the service was good, we had a fun time.","caveman","21","no","2","white","female","eng",NA,"not sure",15
10798,"102","We start on way.",16,"How should i reply",7,"151","We started on our way out of the restaurant.","caveman","21","no","2","white","female","eng",NA,"not sure",15
9854,"78","You think.",17,"What rules do we not allow?",1,"022","If anyone should know better, you'd think it was him, except for his sense of entitlement.","caveman","21","no","2","white","female","eng",NA,"not sure",15
30120,"11","We be.",1,"Son misbehave.",3,"191","We were out of things for him to do other than sing ""Old MacDonald'' to him, which probably wouldn't have gone over too well with the other patrons.","caveman","24","","2","Hispanic","female","eng",NA,"",16
46463,"84","Seconds come.",2,"Walk up to server.",0,"063","A few seconds later the server came to check on us and asked how our food was.","caveman","24","","2","Hispanic","female","eng",NA,"",16
14821,"40","Waitress offer.",3,"He gives.",0,"086","The waitress offered to refill my mother and brother's glasses, but she never asked if I needed one.","caveman","24","","2","Hispanic","female","eng",NA,"",16
5288,"22","It thing.",4,"I eat.",1,"153","It was a good thing that they didn't prepare my meal before giving me the price!","caveman","24","","2","Hispanic","female","eng",NA,"",16
21410,"125","He stand to i.",5,"Waiter leaves.",1,"120","He was standing next to me, but I did my best to concentrate on my soda and be polite.","caveman","24","","2","Hispanic","female","eng",NA,"",16
33531,"86","I order.",6,"I wait.",1,"248","When it came time to pay she brings our ticket and explains that she rang us up for the pecan pie I had ordered as it was less expensive and what I wanted in the first place, but we noticed that she charged us for our friend's Taco Salad.","caveman","24","","2","Hispanic","female","eng",NA,"",16
16353,"88","He tell.",7,"He ask.",5,"023","He told them they were no longer welcome.","caveman","24","","2","Hispanic","female","eng",NA,"",16
9151,"29","It pour with rain.",8,"Holiday end.",1,"171","It was also pouring with rain outside and the restaurant was very busy with only about two tables free.","caveman","24","","2","Hispanic","female","eng",NA,"",16
11993,"68","Manager shout after they.",9,"He leave.",6,"196","The manager shouted after them that they had not paid their bill, and the man shouted back something that I can't repeat on a family site.","caveman","24","","2","Hispanic","female","eng",NA,"",16
11674,"62","I stick.",10,"I grab.",0,"151","At this point I'm just sticking around to watch the show.","caveman","24","","2","Hispanic","female","eng",NA,"",16
14221,"10","It freezing.",11,"It end.",1,"025","It's freezing this time of year so I didn't want to sit near the door.","caveman","24","","2","Hispanic","female","eng",NA,"",16
13364,"110","I refuse.",12,"I ask.",2,"050","I refused but also declined to tip the culprit.","caveman","24","","2","Hispanic","female","eng",NA,"",16
40841,"48","Judge try in reality.",13,"They are employees.",1,"022","In reality this ""judge'' was trying to hide his martini on the floor.","caveman","24","","2","Hispanic","female","eng",NA,"",16
4446,"76","She decide.",14,"She buy.",1,"033","At this point, she finally decides to get off the phone and gets huffy with the waitress about the ""defective teabag'' and how she needs to place her order ""right now because she's in a hurry.''","caveman","24","","2","Hispanic","female","eng",NA,"",16
9955,"18","We remain for hour to spite.",15,"I sign.",1,"271","Just to spite him, we remained at our table for nearly 3 hours.","caveman","24","","2","Hispanic","female","eng",NA,"",16
7507,"168","Husband decide.",16,"I trip.",0,"177","My husband and I decided to just order a couple of sodas and desserts as we had a big breakfast earlier in the day and we explained to the waitress that our two orders would be on a separate ticket which seemed to confuse her.","caveman","24","","2","Hispanic","female","eng",NA,"",16
9375,"41","Food good.",17,"We enter.",0,"243","The food was good, the service was good, we had a fun time.","caveman","24","","2","Hispanic","female","eng",NA,"",16
75981,"76","She break.",1,"She was finally able to decide.",0,"033","Of course, she breaks the teabag inside.","caveman","24","At first it was a little unclear on what to do but I picked it up quickly.","2","Mexican-American","male","eng+other",NA,"Context clues in a restaurant setting.",17
19544,"22","It thing.",2,"I am ready to order.",1,"153","It was a good thing that they didn't prepare my meal before giving me the price!","caveman","24","At first it was a little unclear on what to do but I picked it up quickly.","2","Mexican-American","male","eng+other",NA,"Context clues in a restaurant setting.",17
100883,"41","We seat.",3,"I need to ask for another item.",2,"120","We'd been seated at a booth, but I sat on a regular chair on the outside of the table -- yes, my crazy bubble rules apply to even family members --.","caveman","24","At first it was a little unclear on what to do but I picked it up quickly.","2","Mexican-American","male","eng+other",NA,"Context clues in a restaurant setting.",17
52453,"84","Server start.",4,"I can definitely still eat more.",1,"063","The server started arguing with my wife, ""I made sure the cook knew it had to be rare... the cook was going to leave it on longer but I made him take it off... etc.'' After a minute or so of listening to them argue about whether the burger was well done or rare, I just picked the burger patty up with both hands, they both stopped and looked at me, and I broke the burger patty in half with an audible snap.","caveman","24","At first it was a little unclear on what to do but I picked it up quickly.","2","Mexican-American","male","eng+other",NA,"Context clues in a restaurant setting.",17
28580,"102","Salad deliver before appetizer.",5,"The waiter asks if we need anything else.",5,"151","The salads with the dinners were delivered before the appetizer we ordered.","caveman","24","At first it was a little unclear on what to do but I picked it up quickly.","2","Mexican-American","male","eng+other",NA,"Context clues in a restaurant setting.",17
24063,"168","I embarrassed.",6,"The husband did not mind.",2,"177","I was so embarrassed by the spectacle she made us into that I just wanted to leave.","caveman","24","At first it was a little unclear on what to do but I picked it up quickly.","2","Mexican-American","male","eng+other",NA,"Context clues in a restaurant setting.",17
26804,"58","It freezing.",7,"I find a table to enjoy my meal.",0,"171","It's freezing this time of year so I didn't want to sit near the door.","caveman","24","At first it was a little unclear on what to do but I picked it up quickly.","2","Mexican-American","male","eng+other",NA,"Context clues in a restaurant setting.",17
67987,"21","Waitress come.",8,"I am deciding on what to eat.",0,"243","After perusing our menus, the waitress came over to take our order.","caveman","24","At first it was a little unclear on what to do but I picked it up quickly.","2","Mexican-American","male","eng+other",NA,"Context clues in a restaurant setting.",17
32932,"18","Waiter say.",9,"We had rude service.",0,"271","The waiter said nothing the rest of the evening about us having to leave early, but he was clearly peeved.","caveman","24","At first it was a little unclear on what to do but I picked it up quickly.","2","Mexican-American","male","eng+other",NA,"Context clues in a restaurant setting.",17
28124,"11","Son behave.",10,"The son accidentally makes a mess.",4,"191","Our son was now behaving the way you would expect an 18-month-old to behave after sitting in a high chair for nearly an hour watching other people eat.","caveman","24","At first it was a little unclear on what to do but I picked it up quickly.","2","Mexican-American","male","eng+other",NA,"Context clues in a restaurant setting.",17
26421,"110","I refuse.",11,"I get home from work late.",2,"050","I refused but also declined to tip the culprit.","caveman","24","At first it was a little unclear on what to do but I picked it up quickly.","2","Mexican-American","male","eng+other",NA,"Context clues in a restaurant setting.",17
18301,"88","He tell.",12,"I begin to get upset.",5,"023","He told them they were no longer welcome.","caveman","24","At first it was a little unclear on what to do but I picked it up quickly.","2","Mexican-American","male","eng+other",NA,"Context clues in a restaurant setting.",17
16924,"78","We not allow.",13,"I think the meal was good.",0,"022","As I said, we did not allow it to tarnish our evening.","caveman","24","At first it was a little unclear on what to do but I picked it up quickly.","2","Mexican-American","male","eng+other",NA,"Context clues in a restaurant setting.",17
23932,"40","I have.",14,"I decided to order another.",1,"086","I always had to speak up and try to get her attention for a refill.","caveman","24","At first it was a little unclear on what to do but I picked it up quickly.","2","Mexican-American","male","eng+other",NA,"Context clues in a restaurant setting.",17
31806,"68","He throw.",15,"They decided to leave the restaurant.",5,"196","He then would throw that steak on the table, get another one out of the box, throw it on the scale, and again, exclaim:  ""10 ounces!''","caveman","24","At first it was a little unclear on what to do but I picked it up quickly.","2","Mexican-American","male","eng+other",NA,"Context clues in a restaurant setting.",17
25238,"86","I order.",16,"We all arrive on time for our meal.",0,"248","After we ordered the waitress came back and apologized saying they were out of the pecan pie I had ordered.","caveman","24","At first it was a little unclear on what to do but I picked it up quickly.","2","Mexican-American","male","eng+other",NA,"Context clues in a restaurant setting.",17
28385,"10","It freezing.",17,"I decide to order it as well.",1,"025","It's freezing this time of year so I didn't want to sit near the door.","caveman","24","At first it was a little unclear on what to do but I picked it up quickly.","2","Mexican-American","male","eng+other",NA,"Context clues in a restaurant setting.",17
51921,"10","It was off to a bad start as soon as I walked in the door.",1,"The weather in Michigan winters sucks, especially in this old house.",0,"025","It was off to a bad start as soon as I walked in the door.","original","45","","4","Caucasian","male","eng",NA,"No idea",18
35857,"76","At this point, she finally decides to get off the phone and gets huffy with the waitress about the ""defective teabag'' and how she needs to place her order ""right now because she's in a hurry.''",2,"Now my tea is so strong I can't drink it.",1,"033","At this point, she finally decides to get off the phone and gets huffy with the waitress about the ""defective teabag'' and how she needs to place her order ""right now because she's in a hurry.''","original","45","","4","Caucasian","male","eng",NA,"No idea",18
46674,"11","Our son was now behaving the way you would expect an 18-month-old to behave after sitting in a high chair for nearly an hour watching other people eat.",3,"He eventually wore out and crashed.",4,"191","Our son was now behaving the way you would expect an 18-month-old to behave after sitting in a high chair for nearly an hour watching other people eat.","original","45","","4","Caucasian","male","eng",NA,"No idea",18
60400,"68","The manager shouted after them that they had not paid their bill, and the man shouted back something that I can't repeat on a family site.",4,"After the third steak, the man was getting visibly agitated, and appeared to become violent.",6,"196","The manager shouted after them that they had not paid their bill, and the man shouted back something that I can't repeat on a family site.","original","45","","4","Caucasian","male","eng",NA,"No idea",18
34363,"88","I interrupted her stating, ""I will go get my manager,'' and walked away.",5,"I told the guest that their coupons were not any good here.",1,"023","I interrupted her stating, ""I will go get my manager,'' and walked away.","original","45","","4","Caucasian","male","eng",NA,"No idea",18
40917,"88","I interrupted her stating, ""I will go get my manager,'' and walked away.",5,"I told the guest that their coupons were not any good here.",1,"023","I interrupted her stating, ""I will go get my manager,'' and walked away.","original","45","","4","Caucasian","male","eng",NA,"No idea",18
67145,"168","My husband and I decided to just order a couple of sodas and desserts as we had a big breakfast earlier in the day and we explained to the waitress that our two orders would be on a separate ticket which seemed to confuse her.",6,"My wife came completely unglued and threatened to sue the restaurant.",0,"177","My husband and I decided to just order a couple of sodas and desserts as we had a big breakfast earlier in the day and we explained to the waitress that our two orders would be on a separate ticket which seemed to confuse her.","original","45","","4","Caucasian","male","eng",NA,"No idea",18
46928,"48","In reality this ""judge'' was trying to hide his martini on the floor.",7,"The patron was unruly, but looked too drunk to do anything about it.",1,"022","In reality this ""judge'' was trying to hide his martini on the floor.","original","45","","4","Caucasian","male","eng",NA,"No idea",18
49343,"86","After we ordered the waitress came back and apologized saying they were out of the pecan pie I had ordered.",8,"We did not know what the bill would look like, since the rest of the experience was so bad.",0,"248","After we ordered the waitress came back and apologized saying they were out of the pecan pie I had ordered.","original","45","","4","Caucasian","male","eng",NA,"No idea",18
26833,"41","We're amicable people, and enjoy small-talk with waiters... well, my mum and sister do, I'm hard of hearing so I'm generally quiet.",9,"We love this restaurant.",1,"243","We're amicable people, and enjoy small-talk with waiters... well, my mum and sister do, I'm hard of hearing so I'm generally quiet.","original","45","","4","Caucasian","male","eng",NA,"No idea",18
22245,"40","The waitress offered to refill my mother and brother's glasses, but she never asked if I needed one.",10,"The waitress either can't hear or doesn't pay attention.",0,"086","The waitress offered to refill my mother and brother's glasses, but she never asked if I needed one.","original","45","","4","Caucasian","male","eng",NA,"No idea",18
28352,"41","The food was good, the service was good, we had a fun time.",11,"We ended up carrying on quite a conversation with the waitress.",0,"120","The food was good, the service was good, we had a fun time.","original","45","","4","Caucasian","male","eng",NA,"No idea",18
24727,"18","The waiter said nothing the rest of the evening about us having to leave early, but he was clearly peeved.",12,"The annoying waiter was a real douche.",0,"271","The waiter said nothing the rest of the evening about us having to leave early, but he was clearly peeved.","original","45","","4","Caucasian","male","eng",NA,"No idea",18
15683,"84","The server started arguing with my wife, ""I made sure the cook knew it had to be rare... the cook was going to leave it on longer but I made him take it off... etc.'' After a minute or so of listening to them argue about whether the burger was well done or rare, I just picked the burger patty up with both hands, they both stopped and looked at me, and I broke the burger patty in half with an audible snap.",13,"We told him it was great.",1,"063","The server started arguing with my wife, ""I made sure the cook knew it had to be rare... the cook was going to leave it on longer but I made him take it off... etc.'' After a minute or so of listening to them argue about whether the burger was well done or rare, I just picked the burger patty up with both hands, they both stopped and looked at me, and I broke the burger patty in half with an audible snap.","original","45","","4","Caucasian","male","eng",NA,"No idea",18
23012,"110","I wonder, however, what we could have done differently to avoid his attitude.",14,"We will not be back.",3,"050","I wonder, however, what we could have done differently to avoid his attitude.","original","45","","4","Caucasian","male","eng",NA,"No idea",18
14908,"22","It was a good thing that they didn't prepare my meal before giving me the price!",15,"I have never been so embarrassed.",1,"153","It was a good thing that they didn't prepare my meal before giving me the price!","original","45","","4","Caucasian","male","eng",NA,"No idea",18
33039,"102","We started on our way out of the restaurant.",16,"We got up and began to walk out of the restaurant.",7,"151","We started on our way out of the restaurant.","original","45","","4","Caucasian","male","eng",NA,"No idea",18
22743,"29","It happened on a bank holiday and I was not at work that day.",17,"The next location was extremely small.",0,"171","It happened on a bank holiday and I was not at work that day.","original","45","","4","Caucasian","male","eng",NA,"No idea",18
88723,"84","The server started arguing with my wife, ""I made sure the cook knew it had to be rare... the cook was going to leave it on longer but I made him take it off... etc.'' After a minute or so of listening to them argue about whether the burger was well done or rare, I just picked the burger patty up with both hands, they both stopped and looked at me, and I broke the burger patty in half with an audible snap.",1,"A server had just brought out food.",1,"063","The server started arguing with my wife, ""I made sure the cook knew it had to be rare... the cook was going to leave it on longer but I made him take it off... etc.'' After a minute or so of listening to them argue about whether the burger was well done or rare, I just picked the burger patty up with both hands, they both stopped and looked at me, and I broke the burger patty in half with an audible snap.","original","22","","3","Caucasian","male","eng",NA,"",19
35611,"18","The waiter said nothing the rest of the evening about us having to leave early, but he was clearly peeved.",2,"Our waiter was totally awful. ",0,"271","The waiter said nothing the rest of the evening about us having to leave early, but he was clearly peeved.","original","22","","3","Caucasian","male","eng",NA,"",19
25929,"76","Of course, she breaks the teabag inside.",3,"Martha has been being a complete pain all night.",0,"033","Of course, she breaks the teabag inside.","original","22","","3","Caucasian","male","eng",NA,"",19
41592,"88","He told them they were no longer welcome.",4,"I made it clear that I wouldn't tolerate that type of behavior either.",5,"023","He told them they were no longer welcome.","original","22","","3","Caucasian","male","eng",NA,"",19
41168,"40","I always had to speak up and try to get her attention for a refill.",5,"The waitress was helpful but seemed to dislike me.",1,"086","I always had to speak up and try to get her attention for a refill.","original","22","","3","Caucasian","male","eng",NA,"",19
15810,"102","We started on our way out of the restaurant.",6,"We began leaving the restaurant.",7,"151","We started on our way out of the restaurant.","original","22","","3","Caucasian","male","eng",NA,"",19
8294,"78","If anyone should know better, you'd think it was him, except for his sense of entitlement.",7,"We enjoyed the night just fine.",1,"022","If anyone should know better, you'd think it was him, except for his sense of entitlement.","original","22","","3","Caucasian","male","eng",NA,"",19
86259,"20","A couple of months ago my husband and I were out running errands and decide to meet up with some friends at a local ""Mom & Pop'' restaurant.",8,"We spotted a couple of friends there.",1,"177","A couple of months ago my husband and I were out running errands and decide to meet up with some friends at a local ""Mom & Pop'' restaurant.","original","22","","3","Caucasian","male","eng",NA,"",19
67049,"110","I wonder, however, what we could have done differently to avoid his attitude.",9,"He offered to take it back to the kitchen to heat it up",3,"050","I wonder, however, what we could have done differently to avoid his attitude.","original","22","","3","Caucasian","male","eng",NA,"",19
12265,"22","It was a good thing that they didn't prepare my meal before giving me the price!",10,"I had no money to pay. ",1,"153","It was a good thing that they didn't prepare my meal before giving me the price!","original","22","","3","Caucasian","male","eng",NA,"",19
74456,"41","The food was good, the service was good, we had a fun time.",11,"I was happy to be out at lunch.",0,"120","The food was good, the service was good, we had a fun time.","original","22","","3","Caucasian","male","eng",NA,"",19
